STUDYID,USUBJID,SUBJID,SITEID,AGE,AGEU,SEX,RACE,ETHNIC,SAFFL,ITTFL,PPROTFL,ARMCD,ARM,ACTARMCD,ACTARM,TRT01P,TRT01PN,TRT01A,TRT01AN,RFSTDTC,RFENDTC,RFXSTDTC,RFXENDTC,EOSSTT,EOTSTT,TRTSDT,TRTEDT,TRTDURD,AVGDD,CUMDOSE,HEIGHTBL,WEIGHTBL,BMIBL,DTHFL,DTHDT,DURDIS,VISNUMEN
STUDY001,STUDY001-SUBJ0001,SUBJ0001,27,74,YEARS,M,OTHER,NOT HISPANIC OR LATINO,Y,Y,Y,ARM3,Treatment 3,ARM3,Treatment 3,Treatment 3,3,Treatment 3,3,2026-05-10,2026-09-04,2025-10-11,2026-08-25,ADVERSE EVENT,ADVERSE EVENT,2025-10-11,2026-08-25,319,0.55,280.5,156.4,77.0,23.4,N,,43,7
STUDY001,STUDY001-SUBJ0002,SUBJ0002,21,73,YEARS,F,ASIAN,NOT HISPANIC OR LATINO,Y,Y,Y,ARM2,Treatment 2,ARM2,Treatment 2,Treatment 2,2,Treatment 2,2,2026-04-25,2026-08-11,2026-06-16,2026-08-09,COMPLETED,COMPLETED,2026-06-16,2026-08-09,55,0.96,52.8,196.4,95.1,23.0,N,,61,9
STUDY001,STUDY001-SUBJ0003,SUBJ0003,4,64,YEARS,F,OTHER,HISPANIC OR LATINO,Y,Y,Y,ARM1,Treatment 1,ARM1,Treatment 1,Treatment 1,1,Treatment 1,1,2025-12-01,2026-08-21,2026-05-25,2026-09-03,COMPLETED,COMPLETED,2026-05-25,2026-09-03,102,0.98,98.3,181.1,64.7,32.0,N,,85,9
STUDY001,STUDY001-SUBJ0004,SUBJ0004,50,66,YEARS,F,BLACK OR AFRICAN AMERICAN,NOT HISPANIC OR LATINO,Y,Y,Y,ARM1,Treatment 1,ARM1,Treatment 1,Treatment 1,1,Treatment 1,1,2025-10-19,2026-09-01,2025-12-11,2026-08-17,COMPLETED,COMPLETED,2025-12-11,2026-08-17,250,0.98,246.4,197.4,58.7,33.5,N,,103,9
STUDY001,STUDY001-SUBJ0005,SUBJ0005,12,74,YEARS,F,AMERICAN INDIAN OR ALASKA NATIVE,HISPANIC OR LATINO,Y,Y,Y,ARM1,Treatment 1,ARM1,Treatment 1,Treatment 1,1,Treatment 1,1,2026-05-31,2026-08-13,2025-11-08,2026-09-05,COMPLETED,COMPLETED,2025-11-08,2026-09-05,302,0.99,292.6,188.4,64.8,32.1,N,,50,9
STUDY001,STUDY001-SUBJ0006,SUBJ0006,13,72,YEARS,F,AMERICAN INDIAN OR ALASKA NATIVE,NOT HISPANIC OR LATINO,Y,Y,Y,ARM1,Treatment 1,ARM1,Treatment 1,Treatment 1,1,Treatment 1,1,2026-04-15,2026-08-23,2026-03-14,2026-08-24,COMPLETED,COMPLETED,2026-03-14,2026-08-24,164,0.98,160.6,187.9,62.6,21.6,N,2026-09-12,99,9
STUDY001,STUDY001-SUBJ0007,SUBJ0007,40,23,YEARS,F,OTHER,NOT HISPANIC OR LATINO,Y,Y,Y,ARM1,Treatment 1,ARM1,Treatment 1,Treatment 1,1,Treatment 1,1,2025-11-12,2026-08-21,2026-05-25,2026-08-15,COMPLETED,COMPLETED,2026-05-25,2026-08-15,83,0.95,80.8,159.9,51.5,26.5,N,,23,9
STUDY001,STUDY001-SUBJ0008,SUBJ0008,16,34,YEARS,M,WHITE,NOT HISPANIC OR LATINO,Y,Y,Y,ARM2,Treatment 2,ARM2,Treatment 2,Treatment 2,2,Treatment 2,2,2026-05-24,2026-08-14,2025-10-23,2026-08-28,COMPLETED,COMPLETED,2025-10-23,2026-08-28,310,0.97,309.7,153.9,81.6,19.5,N,,80,9
STUDY001,STUDY001-SUBJ0009,SUBJ0009,41,33,YEARS,M,WHITE,HISPANIC OR LATINO,Y,Y,Y,ARM1,Treatment 1,ARM1,Treatment 1,Treatment 1,1,Treatment 1,1,2026-06-07,2026-08-29,2025-10-25,2026-08-27,COMPLETED,COMPLETED,2025-10-25,2026-08-27,307,0.96,295.8,189.7,68.7,24.8,N,,63,9
STUDY001,STUDY001-SUBJ0010,SUBJ0010,4,49,YEARS,F,WHITE,NOT HISPANIC OR LATINO,Y,Y,Y,ARM2,Treatment 2,ARM2,Treatment 2,Treatment 2,2,Treatment 2,2,2025-12-24,2026-09-01,2026-05-16,2026-08-21,COMPLETED,COMPLETED,2026-05-16,2026-08-21,98,0.99,94.3,187.0,55.8,30.3,N,,41,9
STUDY001,STUDY001-SUBJ0011,SUBJ0011,6,60,YEARS,F,BLACK OR AFRICAN AMERICAN,NOT HISPANIC OR LATINO,Y,Y,Y,ARM2,Treatment 2,ARM2,Treatment 2,Treatment 2,2,Treatment 2,2,2026-01-28,2026-08-25,2026-06-17,2026-08-29,COMPLETED,COMPLETED,2026-06-17,2026-08-29,74,0.98,73.6,177.5,81.2,34.5,N,,98,9
STUDY001,STUDY001-SUBJ0012,SUBJ0012,21,68,YEARS,M,BLACK OR AFRICAN AMERICAN,HISPANIC OR LATINO,Y,Y,Y,ARM3,Treatment 3,ARM3,Treatment 3,Treatment 3,3,Treatment 3,3,2026-06-14,2026-08-26,2026-03-07,2026-08-22,COMPLETED,COMPLETED,2026-03-07,2026-08-22,169,0.96,161.2,187.1,65.2,29.3,N,,118,9
STUDY001,STUDY001-SUBJ0013,SUBJ0013,11,55,YEARS,M,ASIAN,NOT HISPANIC OR LATINO,Y,Y,Y,ARM1,Treatment 1,ARM1,Treatment 1,Treatment 1,1,Treatment 1,1,2026-02-12,2026-09-05,2025-11-13,2026-08-22,COMPLETED,COMPLETED,2025-11-13,2026-08-22,283,0.96,272.2,174.2,79.5,20.3,N,,66,9
STUDY001,STUDY001-SUBJ0014,SUBJ0014,41,42,YEARS,F,ASIAN,HISPANIC OR LATINO,Y,Y,Y,ARM1,Treatment 1,ARM1,Treatment 1,Treatment 1,1,Treatment 1,1,2026-02-14,2026-08-10,2025-12-13,2026-09-06,COMPLETED,COMPLETED,2025-12-13,2026-09-06,268,1.0,263.2,164.7,111.1,26.3,N,,24,9
STUDY001,STUDY001-SUBJ0015,SUBJ0015,35,63,YEARS,M,BLACK OR AFRICAN AMERICAN,NOT HISPANIC OR LATINO,Y,Y,Y,ARM3,Treatment 3,ARM3,Treatment 3,Treatment 3,3,Treatment 3,3,2025-11-14,2026-08-23,2025-10-20,2026-09-01,LOST TO FOLLOW-UP,LOST TO FOLLOW-UP,2025-10-20,2026-09-01,317,0.86,201.6,187.5,110.9,23.8,N,,34,2
STUDY001,STUDY001-SUBJ0016,SUBJ0016,32,58,YEARS,F,OTHER,HISPANIC OR LATINO,Y,Y,Y,ARM3,Treatment 3,ARM3,Treatment 3,Treatment 3,3,Treatment 3,3,2026-05-20,2026-08-26,2025-10-13,2026-08-25,COMPLETED,COMPLETED,2025-10-13,2026-08-25,317,0.98,310.9,175.4,90.8,27.2,N,,84,9
STUDY001,STUDY001-SUBJ0017,SUBJ0017,43,75,YEARS,M,OTHER,NOT HISPANIC OR LATINO,Y,Y,Y,ARM2,Treatment 2,ARM2,Treatment 2,Treatment 2,2,Treatment 2,2,2026-05-15,2026-08-22,2025-11-29,2026-08-25,WITHDRAWAL BY SUBJECT,WITHDRAWAL BY SUBJECT,2025-11-29,2026-08-25,270,0.68,199.0,191.1,102.9,18.2,N,,49,5
STUDY001,STUDY001-SUBJ0018,SUBJ0018,15,29,YEARS,M,OTHER,NOT HISPANIC OR LATINO,Y,Y,Y,ARM3,Treatment 3,ARM3,Treatment 3,Treatment 3,3,Treatment 3,3,2025-11-16,2026-08-14,2026-06-22,2026-08-12,COMPLETED,COMPLETED,2026-06-22,2026-08-12,52,0.96,49.8,152.1,58.2,28.6,N,,98,9
STUDY001,STUDY001-SUBJ0019,SUBJ0019,18,76,YEARS,F,BLACK OR AFRICAN AMERICAN,HISPANIC OR LATINO,Y,Y,Y,ARM3,Treatment 3,ARM1,Treatment 1,Treatment 3,3,Treatment 1,1,2025-12-25,2026-08-10,2025-10-31,2026-09-05,COMPLETED,COMPLETED,2025-10-31,2026-09-05,310,0.98,306.5,172.1,105.3,32.9,N,,49,9
STUDY001,STUDY001-SUBJ0020,SUBJ0020,47,42,YEARS,F,BLACK OR AFRICAN AMERICAN,NOT HISPANIC OR LATINO,Y,Y,Y,ARM1,Treatment 1,ARM1,Treatment 1,Treatment 1,1,Treatment 1,1,2026-06-09,2026-09-06,2025-10-14,2026-08-18,COMPLETED,COMPLETED,2025-10-14,2026-08-18,309,0.98,308.2,161.8,111.7,32.3,N,,100,9
STUDY001,STUDY001-SUBJ0021,SUBJ0021,24,74,YEARS,F,ASIAN,HISPANIC OR LATINO,Y,Y,Y,ARM2,Treatment 2,ARM2,Treatment 2,Treatment 2,2,Treatment 2,2,2025-11-18,2026-09-02,2026-03-20,2026-09-03,COMPLETED,COMPLETED,2026-03-20,2026-09-03,168,0.97,160.8,162.6,72.4,30.9,N,,36,9
STUDY001,STUDY001-SUBJ0022,SUBJ0022,7,53,YEARS,F,OTHER,HISPANIC OR LATINO,Y,Y,Y,ARM2,Treatment 2,ARM2,Treatment 2,Treatment 2,2,Treatment 2,2,2026-01-25,2026-08-22,2025-09-12,2026-08-25,COMPLETED,COMPLETED,2025-09-12,2026-08-25,348,0.97,331.6,167.5,110.1,20.9,N,,81,9
STUDY001,STUDY001-SUBJ0023,SUBJ0023,48,79,YEARS,M,ASIAN,HISPANIC OR LATINO,Y,Y,Y,ARM2,Treatment 2,ARM2,Treatment 2,Treatment 2,2,Treatment 2,2,2026-05-24,2026-09-01,2025-09-08,2026-08-26,COMPLETED,COMPLETED,2025-09-08,2026-08-26,353,0.98,341.1,169.0,70.5,32.0,N,,15,9
STUDY001,STUDY001-SUBJ0024,SUBJ0024,9,36,YEARS,M,WHITE,HISPANIC OR LATINO,Y,Y,Y,ARM2,Treatment 2,ARM2,Treatment 2,Treatment 2,2,Treatment 2,2,2026-04-12,2026-09-01,2026-02-15,2026-08-13,COMPLETED,COMPLETED,2026-02-15,2026-08-13,180,0.95,177.6,161.9,93.2,26.0,N,,9,9
STUDY001,STUDY001-SUBJ0025,SUBJ0025,50,76,YEARS,M,BLACK OR AFRICAN AMERICAN,NOT HISPANIC OR LATINO,Y,Y,Y,ARM1,Treatment 1,ARM1,Treatment 1,Treatment 1,1,Treatment 1,1,2026-02-07,2026-08-27,2026-04-30,2026-09-01,COMPLETED,COMPLETED,2026-04-30,2026-09-01,125,0.97,123.8,170.5,106.0,25.6,N,,55,9
STUDY001,STUDY001-SUBJ0026,SUBJ0026,36,78,YEARS,M,ASIAN,HISPANIC OR LATINO,Y,Y,Y,ARM3,Treatment 3,ARM3,Treatment 3,Treatment 3,3,Treatment 3,3,2025-10-28,2026-08-20,2026-06-18,2026-08-20,COMPLETED,COMPLETED,2026-06-18,2026-08-20,64,0.99,62.6,194.1,80.3,32.1,N,,25,9
STUDY001,STUDY001-SUBJ0027,SUBJ0027,48,45,YEARS,F,BLACK OR AFRICAN AMERICAN,NOT HISPANIC OR LATINO,Y,Y,Y,ARM2,Treatment 2,ARM2,Treatment 2,Treatment 2,2,Treatment 2,2,2026-04-11,2026-08-20,2025-12-28,2026-08-25,COMPLETED,COMPLETED,2025-12-28,2026-08-25,241,0.97,240.0,154.4,73.8,21.9,N,,26,9
STUDY001,STUDY001-SUBJ0028,SUBJ0028,6,48,YEARS,F,OTHER,HISPANIC OR LATINO,Y,Y,Y,ARM3,Treatment 3,ARM3,Treatment 3,Treatment 3,3,Treatment 3,3,2025-10-07,2026-08-29,2026-05-24,2026-08-14,COMPLETED,COMPLETED,2026-05-24,2026-08-14,83,0.95,80.9,158.6,101.0,24.0,N,,66,9
STUDY001,STUDY001-SUBJ0029,SUBJ0029,44,48,YEARS,M,AMERICAN INDIAN OR ALASKA NATIVE,NOT HISPANIC OR LATINO,Y,Y,Y,ARM2,Treatment 2,ARM2,Treatment 2,Treatment 2,2,Treatment 2,2,2026-01-23,2026-08-26,2025-09-13,2026-09-06,COMPLETED,COMPLETED,2025-09-13,2026-09-06,359,0.98,347.9,164.5,92.5,24.6,N,,79,9
STUDY001,STUDY001-SUBJ0030,SUBJ0030,3,48,YEARS,M,WHITE,NOT HISPANIC OR LATINO,Y,Y,Y,ARM3,Treatment 3,ARM3,Treatment 3,Treatment 3,3,Treatment 3,3,2026-04-16,2026-08-12,2025-09-07,2026-08-12,COMPLETED,COMPLETED,2025-09-07,2026-08-12,340,0.96,325.1,150.6,53.7,32.2,N,,7,9
STUDY001,STUDY001-SUBJ0031,SUBJ0031,35,26,YEARS,F,AMERICAN INDIAN OR ALASKA NATIVE,HISPANIC OR LATINO,Y,Y,Y,ARM3,Treatment 3,ARM3,Treatment 3,Treatment 3,3,Treatment 3,3,2026-01-11,2026-09-05,2026-04-04,2026-09-06,COMPLETED,COMPLETED,2026-04-04,2026-09-06,156,0.96,150.8,177.8,65.9,18.6,N,,114,9
STUDY001,STUDY001-SUBJ0032,SUBJ0032,49,31,YEARS,F,AMERICAN INDIAN OR ALASKA NATIVE,NOT HISPANIC OR LATINO,Y,Y,Y,ARM2,Treatment 2,ARM2,Treatment 2,Treatment 2,2,Treatment 2,2,2026-06-25,2026-08-24,2026-05-18,2026-08-12,COMPLETED,COMPLETED,2026-05-18,2026-08-12,87,0.99,86.6,163.2,69.2,23.0,N,,93,9
STUDY001,STUDY001-SUBJ0033,SUBJ0033,37,52,YEARS,M,WHITE,HISPANIC OR LATINO,Y,Y,Y,ARM3,Treatment 3,ARM3,Treatment 3,Treatment 3,3,Treatment 3,3,2025-12-17,2026-08-08,2025-10-23,2026-08-12,COMPLETED,COMPLETED,2025-10-23,2026-08-12,294,0.98,292.7,194.6,104.7,19.9,N,,32,9
STUDY001,STUDY001-SUBJ0034,SUBJ0034,26,52,YEARS,F,ASIAN,HISPANIC OR LATINO,Y,Y,Y,ARM3,Treatment 3,ARM3,Treatment 3,Treatment 3,3,Treatment 3,3,2025-11-12,2026-08-10,2025-11-03,2026-08-16,COMPLETED,COMPLETED,2025-11-03,2026-08-16,287,0.97,281.1,197.7,65.9,28.2,N,,101,9
STUDY001,STUDY001-SUBJ0035,SUBJ0035,24,72,YEARS,F,BLACK OR AFRICAN AMERICAN,HISPANIC OR LATINO,Y,Y,Y,ARM3,Treatment 3,ARM3,Treatment 3,Treatment 3,3,Treatment 3,3,2026-01-12,2026-09-06,2026-02-14,2026-09-06,COMPLETED,COMPLETED,2026-02-14,2026-09-06,205,0.98,195.6,196.1,76.2,18.7,N,,90,9
STUDY001,STUDY001-SUBJ0036,SUBJ0036,22,62,YEARS,F,ASIAN,HISPANIC OR LATINO,Y,Y,Y,ARM1,Treatment 1,ARM1,Treatment 1,Treatment 1,1,Treatment 1,1,2025-12-07,2026-08-09,2026-04-17,2026-08-26,COMPLETED,COMPLETED,2026-04-17,2026-08-26,132,0.99,127.3,162.8,108.7,34.8,N,,36,9
STUDY001,STUDY001-SUBJ0037,SUBJ0037,28,21,YEARS,M,ASIAN,NOT HISPANIC OR LATINO,Y,Y,Y,ARM2,Treatment 2,ARM2,Treatment 2,Treatment 2,2,Treatment 2,2,2026-07-02,2026-08-11,2025-12-20,2026-08-30,COMPLETED,COMPLETED,2025-12-20,2026-08-30,254,1.0,247.5,175.2,96.5,20.5,N,,60,9
STUDY001,STUDY001-SUBJ0038,SUBJ0038,11,18,YEARS,M,WHITE,HISPANIC OR LATINO,Y,Y,Y,ARM1,Treatment 1,ARM1,Treatment 1,Treatment 1,1,Treatment 1,1,2026-05-08,2026-08-16,2026-04-21,2026-08-11,COMPLETED,COMPLETED,2026-04-21,2026-08-11,113,0.98,112.9,157.9,108.2,29.7,N,,49,9
STUDY001,STUDY001-SUBJ0039,SUBJ0039,49,24,YEARS,F,ASIAN,HISPANIC OR LATINO,Y,Y,Y,ARM2,Treatment 2,ARM2,Treatment 2,Treatment 2,2,Treatment 2,2,2026-01-16,2026-08-24,2026-05-08,2026-08-08,COMPLETED,COMPLETED,2026-05-08,2026-08-08,93,0.98,88.6,185.2,69.8,21.8,N,,29,9
STUDY001,STUDY001-SUBJ0040,SUBJ0040,25,24,YEARS,F,ASIAN,NOT HISPANIC OR LATINO,Y,Y,Y,ARM1,Treatment 1,ARM1,Treatment 1,Treatment 1,1,Treatment 1,1,2026-03-20,2026-08-20,2026-03-15,2026-08-22,LOST TO FOLLOW-UP,LOST TO FOLLOW-UP,2026-03-15,2026-08-22,161,0.55,132.7,150.9,55.3,26.1,N,,71,3
STUDY001,STUDY001-SUBJ0041,SUBJ0041,35,47,YEARS,M,BLACK OR AFRICAN AMERICAN,HISPANIC OR LATINO,Y,Y,N,ARM3,Treatment 3,ARM3,Treatment 3,Treatment 3,3,Treatment 3,3,2026-05-10,2026-08-15,2026-03-01,2026-08-13,COMPLETED,COMPLETED,2026-03-01,2026-08-13,166,0.98,161.1,187.6,118.0,25.2,N,,78,9
STUDY001,STUDY001-SUBJ0042,SUBJ0042,14,58,YEARS,F,OTHER,HISPANIC OR LATINO,Y,Y,Y,ARM3,Treatment 3,ARM3,Treatment 3,Treatment 3,3,Treatment 3,3,2026-05-09,2026-09-04,2026-06-04,2026-09-02,COMPLETED,COMPLETED,2026-06-04,2026-09-02,91,0.97,88.8,161.6,98.7,23.1,N,,47,9
STUDY001,STUDY001-SUBJ0043,SUBJ0043,42,51,YEARS,M,AMERICAN INDIAN OR ALASKA NATIVE,HISPANIC OR LATINO,Y,Y,Y,ARM1,Treatment 1,ARM1,Treatment 1,Treatment 1,1,Treatment 1,1,2026-05-20,2026-08-27,2026-03-24,2026-08-09,COMPLETED,COMPLETED,2026-03-24,2026-08-09,139,0.96,137.1,177.7,50.7,29.5,N,,37,9
STUDY001,STUDY001-SUBJ0044,SUBJ0044,29,46,YEARS,F,AMERICAN INDIAN OR ALASKA NATIVE,NOT HISPANIC OR LATINO,Y,Y,Y,ARM3,Treatment 3,ARM3,Treatment 3,Treatment 3,3,Treatment 3,3,2026-05-08,2026-09-04,2026-07-19,2026-08-10,COMPLETED,COMPLETED,2026-07-19,2026-08-10,23,0.96,22.4,177.0,103.4,33.7,N,,31,9
STUDY001,STUDY001-SUBJ0045,SUBJ0045,21,47,YEARS,M,WHITE,HISPANIC OR LATINO,Y,Y,Y,ARM2,Treatment 2,ARM2,Treatment 2,Treatment 2,2,Treatment 2,2,2025-09-06,2026-08-09,2026-04-01,2026-08-24,COMPLETED,COMPLETED,2026-04-01,2026-08-24,146,0.99,140.6,188.1,117.9,21.1,N,,119,9
STUDY001,STUDY001-SUBJ0046,SUBJ0046,32,76,YEARS,M,OTHER,NOT HISPANIC OR LATINO,Y,Y,Y,ARM1,Treatment 1,ARM1,Treatment 1,Treatment 1,1,Treatment 1,1,2026-04-11,2026-09-01,2026-05-15,2026-09-06,COMPLETED,COMPLETED,2026-05-15,2026-09-06,115,0.98,114.5,159.7,70.0,18.9,N,,56,9
STUDY001,STUDY001-SUBJ0047,SUBJ0047,35,34,YEARS,F,WHITE,NOT HISPANIC OR LATINO,Y,Y,Y,ARM3,Treatment 3,ARM3,Treatment 3,Treatment 3,3,Treatment 3,3,2025-12-11,2026-09-01,2026-06-20,2026-08-17,COMPLETED,COMPLETED,2026-06-20,2026-08-17,59,0.96,58.2,166.8,66.8,32.8,N,,98,9
STUDY001,STUDY001-SUBJ0048,SUBJ0048,48,67,YEARS,F,AMERICAN INDIAN OR ALASKA NATIVE,NOT HISPANIC OR LATINO,Y,Y,Y,ARM3,Treatment 3,ARM3,Treatment 3,Treatment 3,3,Treatment 3,3,2026-01-07,2026-08-20,2025-09-16,2026-08-20,COMPLETED,COMPLETED,2025-09-16,2026-08-20,339,0.96,322.2,168.7,105.3,30.7,N,,91,9
STUDY001,STUDY001-SUBJ0049,SUBJ0049,5,18,YEARS,M,AMERICAN INDIAN OR ALASKA NATIVE,HISPANIC OR LATINO,Y,Y,Y,ARM1,Treatment 1,ARM1,Treatment 1,Treatment 1,1,Treatment 1,1,2025-11-01,2026-08-08,2026-03-07,2026-08-19,COMPLETED,COMPLETED,2026-03-07,2026-08-19,166,0.96,165.8,189.8,58.2,28.2,N,,7,9
STUDY001,STUDY001-SUBJ0050,SUBJ0050,46,21,YEARS,M,AMERICAN INDIAN OR ALASKA NATIVE,NOT HISPANIC OR LATINO,Y,Y,Y,ARM1,Treatment 1,ARM1,Treatment 1,Treatment 1,1,Treatment 1,1,2025-11-28,2026-08-22,2026-03-14,2026-09-02,COMPLETED,COMPLETED,2026-03-14,2026-09-02,173,0.96,165.5,191.2,68.7,23.1,N,,89,9
STUDY001,STUDY001-SUBJ0051,SUBJ0051,17,60,YEARS,F,OTHER,HISPANIC OR LATINO,Y,Y,Y,ARM3,Treatment 3,ARM3,Treatment 3,Treatment 3,3,Treatment 3,3,2025-11-22,2026-08-17,2025-11-17,2026-08-15,COMPLETED,COMPLETED,2025-11-17,2026-08-15,272,0.98,268.2,188.5,119.3,27.5,N,,6,9
STUDY001,STUDY001-SUBJ0052,SUBJ0052,4,80,YEARS,F,ASIAN,HISPANIC OR LATINO,Y,Y,Y,ARM3,Treatment 3,ARM3,Treatment 3,Treatment 3,3,Treatment 3,3,2026-06-25,2026-08-30,2026-05-14,2026-08-27,COMPLETED,COMPLETED,2026-05-14,2026-08-27,106,0.99,104.0,167.8,102.6,33.2,N,,16,9
STUDY001,STUDY001-SUBJ0053,SUBJ0053,12,21,YEARS,F,OTHER,NOT HISPANIC OR LATINO,Y,Y,Y,ARM1,Treatment 1,ARM1,Treatment 1,Treatment 1,1,Treatment 1,1,2026-01-08,2026-08-28,2026-03-25,2026-08-27,ADVERSE EVENT,ADVERSE EVENT,2026-03-25,2026-08-27,156,0.51,137.8,198.5,91.1,24.4,N,,33,5
STUDY001,STUDY001-SUBJ0054,SUBJ0054,32,34,YEARS,M,ASIAN,HISPANIC OR LATINO,Y,Y,Y,ARM3,Treatment 3,ARM3,Treatment 3,Treatment 3,3,Treatment 3,3,2025-10-09,2026-08-09,2025-12-09,2026-08-19,COMPLETED,COMPLETED,2025-12-09,2026-08-19,254,0.99,253.3,196.1,106.7,29.8,N,,53,9
STUDY001,STUDY001-SUBJ0055,SUBJ0055,26,23,YEARS,F,ASIAN,NOT HISPANIC OR LATINO,Y,Y,Y,ARM2,Treatment 2,ARM2,Treatment 2,Treatment 2,2,Treatment 2,2,2026-05-21,2026-08-15,2025-11-05,2026-08-13,COMPLETED,COMPLETED,2025-11-05,2026-08-13,282,0.98,275.6,181.2,87.9,31.3,N,,51,9
STUDY001,STUDY001-SUBJ0056,SUBJ0056,46,49,YEARS,M,ASIAN,NOT HISPANIC OR LATINO,Y,Y,Y,ARM3,Treatment 3,ARM3,Treatment 3,Treatment 3,3,Treatment 3,3,2026-07-26,2026-08-10,2026-07-28,2026-08-09,COMPLETED,COMPLETED,2026-07-28,2026-08-09,13,0.97,12.8,188.0,86.8,22.5,N,,94,9
STUDY001,STUDY001-SUBJ0057,SUBJ0057,48,47,YEARS,M,OTHER,NOT HISPANIC OR LATINO,Y,Y,Y,ARM3,Treatment 3,ARM3,Treatment 3,Treatment 3,3,Treatment 3,3,2026-04-10,2026-08-24,2026-01-10,2026-08-16,COMPLETED,COMPLETED,2026-01-10,2026-08-16,219,0.95,215.1,182.9,109.6,27.4,N,,89,9
STUDY001,STUDY001-SUBJ0058,SUBJ0058,39,64,YEARS,F,BLACK OR AFRICAN AMERICAN,NOT HISPANIC OR LATINO,Y,Y,Y,ARM3,Treatment 3,ARM3,Treatment 3,Treatment 3,3,Treatment 3,3,2025-10-26,2026-08-30,2026-06-24,2026-08-13,COMPLETED,COMPLETED,2026-06-24,2026-08-13,51,1.0,50.0,168.6,82.2,31.2,N,,16,9
STUDY001,STUDY001-SUBJ0059,SUBJ0059,31,52,YEARS,M,BLACK OR AFRICAN AMERICAN,NOT HISPANIC OR LATINO,Y,Y,Y,ARM2,Treatment 2,ARM2,Treatment 2,Treatment 2,2,Treatment 2,2,2026-05-22,2026-08-10,2025-10-05,2026-08-25,COMPLETED,COMPLETED,2025-10-05,2026-08-25,325,0.98,315.6,155.8,79.7,20.4,N,,17,9
STUDY001,STUDY001-SUBJ0060,SUBJ0060,50,41,YEARS,M,WHITE,NOT HISPANIC OR LATINO,Y,Y,Y,ARM1,Treatment 1,ARM1,Treatment 1,Treatment 1,1,Treatment 1,1,2026-03-28,2026-08-19,2026-07-31,2026-08-19,COMPLETED,COMPLETED,2026-07-31,2026-08-19,20,0.96,19.7,171.4,73.7,30.1,N,,110,9
STUDY001,STUDY001-SUBJ0061,SUBJ0061,34,52,YEARS,M,ASIAN,NOT HISPANIC OR LATINO,Y,Y,Y,ARM1,Treatment 1,ARM1,Treatment 1,Treatment 1,1,Treatment 1,1,2026-06-30,2026-08-24,2025-11-08,2026-09-03,PROTOCOL VIOLATION,PROTOCOL VIOLATION,2025-11-08,2026-09-03,300,0.91,218.7,188.7,75.9,34.6,N,,76,3
STUDY001,STUDY001-SUBJ0062,SUBJ0062,47,29,YEARS,F,BLACK OR AFRICAN AMERICAN,NOT HISPANIC OR LATINO,Y,Y,Y,ARM1,Treatment 1,ARM1,Treatment 1,Treatment 1,1,Treatment 1,1,2026-04-16,2026-08-24,2026-07-04,2026-08-30,COMPLETED,COMPLETED,2026-07-04,2026-08-30,58,0.96,55.7,162.3,56.6,33.5,N,,85,9
STUDY001,STUDY001-SUBJ0063,SUBJ0063,20,57,YEARS,M,BLACK OR AFRICAN AMERICAN,HISPANIC OR LATINO,Y,Y,Y,ARM2,Treatment 2,ARM2,Treatment 2,Treatment 2,2,Treatment 2,2,2025-09-24,2026-08-18,2026-08-04,2026-08-24,COMPLETED,COMPLETED,2026-08-04,2026-08-24,21,0.97,20.7,159.4,54.7,24.5,N,,57,9
STUDY001,STUDY001-SUBJ0064,SUBJ0064,15,27,YEARS,M,AMERICAN INDIAN OR ALASKA NATIVE,NOT HISPANIC OR LATINO,Y,Y,Y,ARM2,Treatment 2,ARM2,Treatment 2,Treatment 2,2,Treatment 2,2,2025-10-05,2026-08-22,2026-02-26,2026-09-06,COMPLETED,COMPLETED,2026-02-26,2026-09-06,193,0.96,183.4,161.2,106.5,30.0,N,,113,9
STUDY001,STUDY001-SUBJ0065,SUBJ0065,44,66,YEARS,M,OTHER,NOT HISPANIC OR LATINO,Y,Y,Y,ARM1,Treatment 1,ARM1,Treatment 1,Treatment 1,1,Treatment 1,1,2025-09-11,2026-08-08,2025-09-19,2026-08-28,COMPLETED,COMPLETED,2025-09-19,2026-08-28,344,1.0,332.5,150.8,68.0,33.4,N,,87,9
STUDY001,STUDY001-SUBJ0066,SUBJ0066,45,21,YEARS,M,ASIAN,NOT HISPANIC OR LATINO,Y,Y,Y,ARM2,Treatment 2,ARM2,Treatment 2,Treatment 2,2,Treatment 2,2,2026-07-26,2026-08-24,2026-05-20,2026-08-08,COMPLETED,COMPLETED,2026-05-20,2026-08-08,81,0.99,80.8,164.2,76.8,19.2,N,,100,9
STUDY001,STUDY001-SUBJ0067,SUBJ0067,37,44,YEARS,M,BLACK OR AFRICAN AMERICAN,HISPANIC OR LATINO,Y,Y,Y,ARM3,Treatment 3,ARM3,Treatment 3,Treatment 3,3,Treatment 3,3,2025-09-10,2026-08-27,2025-11-19,2026-08-31,COMPLETED,COMPLETED,2025-11-19,2026-08-31,286,0.98,272.5,194.7,83.1,21.1,N,,76,9
STUDY001,STUDY001-SUBJ0068,SUBJ0068,29,36,YEARS,M,OTHER,HISPANIC OR LATINO,Y,Y,Y,ARM2,Treatment 2,ARM2,Treatment 2,Treatment 2,2,Treatment 2,2,2025-10-17,2026-08-11,2026-05-03,2026-08-28,COMPLETED,COMPLETED,2026-05-03,2026-08-28,118,0.96,113.6,151.9,66.4,18.6,N,,18,9
STUDY001,STUDY001-SUBJ0069,SUBJ0069,39,56,YEARS,F,BLACK OR AFRICAN AMERICAN,NOT HISPANIC OR LATINO,Y,Y,Y,ARM2,Treatment 2,ARM2,Treatment 2,Treatment 2,2,Treatment 2,2,2026-02-10,2026-08-17,2025-11-16,2026-09-03,COMPLETED,COMPLETED,2025-11-16,2026-09-03,292,0.99,291.9,182.8,52.6,22.6,N,,110,9
STUDY001,STUDY001-SUBJ0070,SUBJ0070,23,47,YEARS,F,WHITE,HISPANIC OR LATINO,Y,Y,Y,ARM3,Treatment 3,ARM3,Treatment 3,Treatment 3,3,Treatment 3,3,2026-02-01,2026-08-31,2025-10-26,2026-08-17,COMPLETED,COMPLETED,2025-10-26,2026-08-17,296,0.95,293.9,195.4,68.1,27.8,N,,115,9
STUDY001,STUDY001-SUBJ0071,SUBJ0071,14,43,YEARS,F,BLACK OR AFRICAN AMERICAN,HISPANIC OR LATINO,Y,Y,Y,ARM3,Treatment 3,ARM3,Treatment 3,Treatment 3,3,Treatment 3,3,2026-06-25,2026-08-13,2026-05-16,2026-09-03,COMPLETED,COMPLETED,2026-05-16,2026-09-03,111,0.97,107.1,182.5,71.2,29.2,N,,49,9
STUDY001,STUDY001-SUBJ0072,SUBJ0072,24,23,YEARS,F,ASIAN,NOT HISPANIC OR LATINO,Y,Y,Y,ARM2,Treatment 2,ARM2,Treatment 2,Treatment 2,2,Treatment 2,2,2026-07-17,2026-09-01,2026-05-11,2026-08-22,LOST TO FOLLOW-UP,LOST TO FOLLOW-UP,2026-05-11,2026-08-22,104,0.5,93.7,159.6,90.1,33.8,N,,52,5
STUDY001,STUDY001-SUBJ0073,SUBJ0073,19,38,YEARS,F,OTHER,NOT HISPANIC OR LATINO,Y,Y,Y,ARM3,Treatment 3,ARM3,Treatment 3,Treatment 3,3,Treatment 3,3,2026-03-30,2026-08-26,2025-12-03,2026-08-15,COMPLETED,COMPLETED,2025-12-03,2026-08-15,256,0.96,243.8,151.5,76.5,31.6,N,,111,9
STUDY001,STUDY001-SUBJ0074,SUBJ0074,20,41,YEARS,M,ASIAN,HISPANIC OR LATINO,Y,Y,Y,ARM3,Treatment 3,ARM3,Treatment 3,Treatment 3,3,Treatment 3,3,2025-10-08,2026-08-25,2026-06-13,2026-08-27,COMPLETED,COMPLETED,2026-06-13,2026-08-27,76,0.95,72.3,191.4,114.6,26.0,N,,62,9
STUDY001,STUDY001-SUBJ0075,SUBJ0075,44,22,YEARS,M,ASIAN,NOT HISPANIC OR LATINO,Y,Y,Y,ARM1,Treatment 1,ARM1,Treatment 1,Treatment 1,1,Treatment 1,1,2026-01-28,2026-08-20,2026-07-27,2026-08-23,COMPLETED,COMPLETED,2026-07-27,2026-08-23,28,0.97,27.1,153.2,73.9,20.8,N,,60,9
STUDY001,STUDY001-SUBJ0076,SUBJ0076,45,47,YEARS,F,AMERICAN INDIAN OR ALASKA NATIVE,NOT HISPANIC OR LATINO,Y,Y,Y,ARM1,Treatment 1,ARM1,Treatment 1,Treatment 1,1,Treatment 1,1,2026-07-31,2026-08-18,2026-03-31,2026-08-18,LOST TO FOLLOW-UP,LOST TO FOLLOW-UP,2026-03-31,2026-08-18,141,0.62,132.8,166.3,97.3,31.8,N,,23,7
STUDY001,STUDY001-SUBJ0077,SUBJ0077,27,54,YEARS,M,ASIAN,NOT HISPANIC OR LATINO,Y,Y,N,ARM3,Treatment 3,ARM3,Treatment 3,Treatment 3,3,Treatment 3,3,2026-01-24,2026-08-13,2026-05-11,2026-08-22,COMPLETED,COMPLETED,2026-05-11,2026-08-22,104,0.97,99.7,180.8,88.8,32.5,N,,92,9
STUDY001,STUDY001-SUBJ0078,SUBJ0078,24,73,YEARS,F,ASIAN,NOT HISPANIC OR LATINO,Y,Y,Y,ARM2,Treatment 2,ARM2,Treatment 2,Treatment 2,2,Treatment 2,2,2026-02-26,2026-08-29,2026-07-27,2026-08-10,COMPLETED,COMPLETED,2026-07-27,2026-08-10,15,0.95,14.6,159.9,93.5,22.7,N,,64,9
STUDY001,STUDY001-SUBJ0079,SUBJ0079,39,30,YEARS,F,ASIAN,NOT HISPANIC OR LATINO,Y,Y,Y,ARM1,Treatment 1,ARM1,Treatment 1,Treatment 1,1,Treatment 1,1,2026-05-29,2026-08-20,2026-06-15,2026-08-14,COMPLETED,COMPLETED,2026-06-15,2026-08-14,61,0.95,58.8,161.1,88.3,26.6,N,,101,9
STUDY001,STUDY001-SUBJ0080,SUBJ0080,4,77,YEARS,F,ASIAN,HISPANIC OR LATINO,Y,Y,Y,ARM3,Treatment 3,ARM3,Treatment 3,Treatment 3,3,Treatment 3,3,2026-05-03,2026-09-05,2026-05-31,2026-08-14,COMPLETED,COMPLETED,2026-05-31,2026-08-14,76,0.97,74.1,174.6,73.0,25.7,N,,15,9
STUDY001,STUDY001-SUBJ0081,SUBJ0081,44,52,YEARS,M,ASIAN,HISPANIC OR LATINO,Y,Y,Y,ARM1,Treatment 1,ARM3,Treatment 3,Treatment 1,1,Treatment 3,3,2026-04-21,2026-09-02,2026-02-13,2026-08-08,COMPLETED,COMPLETED,2026-02-13,2026-08-08,177,0.98,173.5,157.6,95.4,18.0,N,,104,9
STUDY001,STUDY001-SUBJ0082,SUBJ0082,11,77,YEARS,F,AMERICAN INDIAN OR ALASKA NATIVE,HISPANIC OR LATINO,Y,Y,Y,ARM2,Treatment 2,ARM3,Treatment 3,Treatment 2,2,Treatment 3,3,2025-12-06,2026-08-20,2026-03-16,2026-08-29,COMPLETED,COMPLETED,2026-03-16,2026-08-29,167,0.96,164.8,155.9,87.2,28.3,N,,56,9
STUDY001,STUDY001-SUBJ0083,SUBJ0083,49,28,YEARS,M,OTHER,NOT HISPANIC OR LATINO,Y,Y,Y,ARM2,Treatment 2,ARM2,Treatment 2,Treatment 2,2,Treatment 2,2,2025-12-19,2026-08-19,2026-04-08,2026-09-02,COMPLETED,COMPLETED,2026-04-08,2026-09-02,148,0.97,141.8,199.0,71.6,27.8,N,,110,9
STUDY001,STUDY001-SUBJ0084,SUBJ0084,15,69,YEARS,M,WHITE,NOT HISPANIC OR LATINO,Y,Y,Y,ARM1,Treatment 1,ARM1,Treatment 1,Treatment 1,1,Treatment 1,1,2026-06-25,2026-09-04,2025-12-29,2026-08-31,COMPLETED,COMPLETED,2025-12-29,2026-08-31,246,0.97,244.1,163.2,77.8,24.0,N,,9,9
STUDY001,STUDY001-SUBJ0085,SUBJ0085,18,74,YEARS,M,OTHER,HISPANIC OR LATINO,Y,Y,Y,ARM3,Treatment 3,ARM3,Treatment 3,Treatment 3,3,Treatment 3,3,2026-06-29,2026-08-13,2025-11-06,2026-08-12,COMPLETED,COMPLETED,2025-11-06,2026-08-12,280,0.98,269.5,196.1,118.1,21.8,N,,54,9
STUDY001,STUDY001-SUBJ0086,SUBJ0086,34,19,YEARS,M,ASIAN,NOT HISPANIC OR LATINO,Y,Y,Y,ARM1,Treatment 1,ARM1,Treatment 1,Treatment 1,1,Treatment 1,1,2026-08-05,2026-08-28,2025-11-11,2026-08-27,COMPLETED,COMPLETED,2025-11-11,2026-08-27,290,0.96,282.2,177.7,82.7,21.5,N,,85,9
STUDY001,STUDY001-SUBJ0087,SUBJ0087,40,23,YEARS,M,WHITE,HISPANIC OR LATINO,Y,Y,Y,ARM1,Treatment 1,ARM1,Treatment 1,Treatment 1,1,Treatment 1,1,2025-09-15,2026-08-14,2026-01-27,2026-08-16,COMPLETED,COMPLETED,2026-01-27,2026-08-16,202,0.95,198.2,167.1,117.2,24.3,N,,43,9
STUDY001,STUDY001-SUBJ0088,SUBJ0088,38,49,YEARS,F,WHITE,NOT HISPANIC OR LATINO,Y,Y,Y,ARM2,Treatment 2,ARM2,Treatment 2,Treatment 2,2,Treatment 2,2,2025-12-16,2026-08-09,2026-04-09,2026-09-03,COMPLETED,COMPLETED,2026-04-09,2026-09-03,148,0.97,147.3,187.9,52.0,28.5,N,,20,9
STUDY001,STUDY001-SUBJ0089,SUBJ0089,37,63,YEARS,F,BLACK OR AFRICAN AMERICAN,NOT HISPANIC OR LATINO,Y,Y,Y,ARM1,Treatment 1,ARM1,Treatment 1,Treatment 1,1,Treatment 1,1,2026-01-08,2026-08-22,2026-01-19,2026-09-03,LOST TO FOLLOW-UP,LOST TO FOLLOW-UP,2026-01-19,2026-09-03,228,0.61,205.6,156.6,117.2,31.4,N,,98,8
STUDY001,STUDY001-SUBJ0090,SUBJ0090,3,27,YEARS,F,AMERICAN INDIAN OR ALASKA NATIVE,NOT HISPANIC OR LATINO,Y,Y,Y,ARM3,Treatment 3,ARM3,Treatment 3,Treatment 3,3,Treatment 3,3,2025-10-21,2026-08-09,2026-01-05,2026-08-15,COMPLETED,COMPLETED,2026-01-05,2026-08-15,223,0.96,220.7,165.2,99.5,28.2,N,,87,9
STUDY001,STUDY001-SUBJ0091,SUBJ0091,25,33,YEARS,F,BLACK OR AFRICAN AMERICAN,NOT HISPANIC OR LATINO,Y,Y,Y,ARM1,Treatment 1,ARM1,Treatment 1,Treatment 1,1,Treatment 1,1,2026-07-31,2026-08-22,2026-04-27,2026-08-20,WITHDRAWAL BY SUBJECT,WITHDRAWAL BY SUBJECT,2026-04-27,2026-08-20,116,0.81,98.0,181.0,114.7,34.0,N,,36,2
STUDY001,STUDY001-SUBJ0092,SUBJ0092,37,78,YEARS,F,ASIAN,NOT HISPANIC OR LATINO,Y,Y,Y,ARM2,Treatment 2,ARM3,Treatment 3,Treatment 2,2,Treatment 3,3,2025-09-27,2026-08-09,2026-01-26,2026-08-13,COMPLETED,COMPLETED,2026-01-26,2026-08-13,200,0.97,194.7,195.6,64.4,25.4,N,,21,9
STUDY001,STUDY001-SUBJ0093,SUBJ0093,20,79,YEARS,F,ASIAN,HISPANIC OR LATINO,Y,Y,Y,ARM3,Treatment 3,ARM3,Treatment 3,Treatment 3,3,Treatment 3,3,2026-06-24,2026-09-05,2025-11-02,2026-08-12,COMPLETED,COMPLETED,2025-11-02,2026-08-12,284,0.98,271.6,176.5,80.1,21.0,N,,26,9
STUDY001,STUDY001-SUBJ0094,SUBJ0094,40,54,YEARS,M,ASIAN,HISPANIC OR LATINO,Y,Y,Y,ARM2,Treatment 2,ARM2,Treatment 2,Treatment 2,2,Treatment 2,2,2025-10-19,2026-08-20,2026-03-29,2026-08-29,COMPLETED,COMPLETED,2026-03-29,2026-08-29,154,1.0,149.3,190.0,70.7,33.9,N,,11,9
STUDY001,STUDY001-SUBJ0095,SUBJ0095,3,61,YEARS,M,AMERICAN INDIAN OR ALASKA NATIVE,NOT HISPANIC OR LATINO,Y,Y,Y,ARM2,Treatment 2,ARM2,Treatment 2,Treatment 2,2,Treatment 2,2,2026-03-23,2026-08-08,2026-02-03,2026-08-26,LOST TO FOLLOW-UP,LOST TO FOLLOW-UP,2026-02-03,2026-08-26,205,0.89,121.4,169.9,116.5,32.3,N,,3,8
STUDY001,STUDY001-SUBJ0096,SUBJ0096,43,24,YEARS,F,WHITE,HISPANIC OR LATINO,Y,Y,Y,ARM2,Treatment 2,ARM2,Treatment 2,Treatment 2,2,Treatment 2,2,2026-03-15,2026-09-01,2026-03-06,2026-08-09,COMPLETED,COMPLETED,2026-03-06,2026-08-09,157,0.96,152.0,195.1,79.7,23.0,N,,33,9
STUDY001,STUDY001-SUBJ0097,SUBJ0097,31,62,YEARS,F,BLACK OR AFRICAN AMERICAN,HISPANIC OR LATINO,Y,Y,Y,ARM2,Treatment 2,ARM2,Treatment 2,Treatment 2,2,Treatment 2,2,2025-12-09,2026-08-27,2025-10-09,2026-08-28,WITHDRAWAL BY SUBJECT,WITHDRAWAL BY SUBJECT,2025-10-09,2026-08-28,324,0.61,228.4,179.7,98.9,23.6,N,,9,2
STUDY001,STUDY001-SUBJ0098,SUBJ0098,5,39,YEARS,F,BLACK OR AFRICAN AMERICAN,HISPANIC OR LATINO,Y,Y,Y,ARM1,Treatment 1,ARM1,Treatment 1,Treatment 1,1,Treatment 1,1,2026-01-16,2026-08-25,2026-07-22,2026-08-24,PROTOCOL VIOLATION,PROTOCOL VIOLATION,2026-07-22,2026-08-24,34,0.78,31.0,188.0,53.2,29.4,N,,33,8
STUDY001,STUDY001-SUBJ0099,SUBJ0099,22,78,YEARS,F,BLACK OR AFRICAN AMERICAN,NOT HISPANIC OR LATINO,Y,Y,Y,ARM2,Treatment 2,ARM3,Treatment 3,Treatment 2,2,Treatment 3,3,2025-12-16,2026-08-12,2026-04-27,2026-08-09,COMPLETED,COMPLETED,2026-04-27,2026-08-09,105,0.96,103.6,168.0,88.2,19.5,N,,58,9
STUDY001,STUDY001-SUBJ0100,SUBJ0100,29,79,YEARS,M,OTHER,NOT HISPANIC OR LATINO,Y,Y,Y,ARM1,Treatment 1,ARM1,Treatment 1,Treatment 1,1,Treatment 1,1,2026-05-21,2026-09-02,2026-06-28,2026-09-06,COMPLETED,COMPLETED,2026-06-28,2026-09-06,71,0.96,68.1,185.8,59.3,31.3,N,,80,9
